Wavelength,Absorbance
200,0.393
201,0.565
202,0.749
203,0.996
204,1.093
205,1.195
206,1.191
207,1.208
208,1.201
209,1.182
210,1.136
211,1.095
212,1.053
213,1.001
214,0.935
215,0.861
216,0.790
217,0.716
218,0.645
219,0.576
220,0.514
221,0.464
222,0.420
223,0.384
224,0.354
225,0.332
226,0.314
227,0.301
228,0.289
229,0.281
230,0.274
231,0.270
232,0.267
233,0.264
234,0.263
235,0.263
236,0.266
237,0.270
238,0.276
239,0.285
240,0.295
241,0.305
242,0.316
243,0.328
244,0.343
245,0.361
246,0.379
247,0.395
248,0.411
249,0.430
250,0.450
251,0.470
252,0.487
253,0.503
254,0.517
255,0.530
256,0.542
257,0.551
258,0.559
259,0.562
260,0.561
261,0.558
262,0.553
263,0.544
264,0.531
265,0.516
266,0.497
267,0.476
268,0.453
269,0.425
270,0.395
271,0.366
272,0.337
273,0.308
274,0.280
275,0.253
276,0.227
277,0.204
278,0.182
279,0.160
280,0.141
281,0.123
282,0.108
283,0.095
284,0.084
285,0.076
286,0.070
287,0.065
288,0.063
289,0.061
290,0.060
291,0.060
292,0.061
293,0.063
294,0.065
295,0.067
296,0.069
297,0.071
298,0.074
299,0.077
300,0.081
301,0.085
302,0.089
303,0.093
304,0.097
305,0.101
306,0.106
307,0.111
308,0.116
309,0.120
310,0.125
311,0.130
312,0.135
313,0.140
314,0.146
315,0.151
316,0.156
317,0.161
318,0.166
319,0.172
320,0.177
321,0.181
322,0.186
323,0.191
324,0.195
325,0.198
326,0.201
327,0.205
328,0.210
329,0.215
330,0.218
331,0.221
332,0.223
333,0.226
334,0.228
335,0.230
336,0.231
337,0.231
338,0.232
339,0.233
340,0.233
341,0.232
342,0.231
343,0.229
344,0.228
345,0.226
346,0.224
347,0.221
348,0.218
349,0.215
350,0.211
351,0.206
352,0.202
353,0.197
354,0.193
355,0.188
356,0.183
357,0.177
358,0.172
359,0.166
360,0.160
361,0.154
362,0.148
363,0.142
364,0.135
365,0.129
366,0.123
367,0.117
368,0.111
369,0.105
370,0.099
371,0.093
372,0.087
373,0.081
374,0.076
375,0.071
376,0.066
377,0.061
378,0.056
379,0.052
380,0.047
381,0.043
382,0.039
383,0.036
384,0.032
385,0.030
386,0.027
387,0.024
388,0.021
389,0.019
390,0.017
391,0.015
392,0.013
393,0.012
394,0.011
395,0.009
396,0.008
397,0.007
398,0.006
399,0.006
400,0.005
401,0.004
402,0.003
403,0.003
404,0.003
405,0.003
406,0.002
407,0.002
408,0.001
409,0.001
410,0.001
411,0.001
412,0.001
413,0.001
414,0.001
415,0.001
416,0.001
417,0.001
418,0.001
419,0.001
420,0.001
421,0.000
422,0.000
423,0.000
424,0.000
425,0.000
426,0.000
427,0.000
428,0.000
429,0.000
430,0.000
431,0.000
432,0.000
433,0.000
434,0.000
435,0.000
436,0.000
437,0.000
438,0.000
439,0.000
440,0.000
441,0.000
442,0.000
443,0.000
444,0.000
445,0.000
446,0.000
447,0.000
448,0.000
449,0.001
450,0.000
451,0.000
452,0.000
453,0.000
454,0.000
455,0.000
456,0.000
457,0.000
458,0.000
459,0.000
460,0.000
461,0.000
462,0.000
463,0.000
464,0.000
465,0.000
466,0.000
467,0.000
468,0.000
469,0.000
470,0.000
471,0.000
472,0.001
473,0.001
474,0.000
475,0.000
476,0.000
477,0.000
478,0.000
479,0.000
480,0.000
481,0.000
482,0.000
483,0.000
484,0.000
485,0.000
486,0.000
487,0.000
488,0.000
489,0.000
490,0.000
491,0.000
492,0.000
493,0.000
494,0.000
495,0.000
496,0.000
497,0.000
498,0.000
499,0.000
500,0.000
501,0.000
502,0.000
503,0.000
504,0.000
505,0.000
506,0.000
507,0.000
508,0.000
509,0.000
510,0.000
511,0.000
512,0.000
513,0.000
514,0.001
515,0.000
516,0.000
517,0.000
518,0.000
519,0.000
520,0.000
521,0.000
522,0.000
523,0.000
524,0.000
525,0.000
526,0.000
527,0.000
528,0.000
529,0.000
530,0.000
531,0.000
532,0.000
533,0.000
534,0.000
535,0.000
536,0.000
537,0.000
538,0.000
539,0.000
540,0.000
541,0.000
542,0.000
543,0.000
544,0.000
545,0.000
546,0.000
547,0.000
548,0.000
549,0.000
550,0.000
551,0.000
552,0.000
553,-0.001
554,0.000
555,0.000
556,0.001
557,0.000
558,0.000
559,0.000
560,0.000
561,0.000
562,0.000
563,0.000
564,0.000
565,0.000
566,0.000
567,0.000
568,0.000
569,0.000
570,0.000
571,0.000
572,0.000
573,0.000
574,0.000
575,0.000
576,0.000
577,0.000
578,0.000
579,0.000
580,0.000
581,0.000
582,0.000
583,0.000
584,-0.001
585,0.000
586,0.000
587,0.001
588,0.000
589,0.000
590,-0.001
591,-0.001
592,0.000
593,0.000
594,0.000
595,0.000
596,0.000
597,0.000
598,0.000
599,-0.001
600,-0.001
601,0.000
602,0.000
603,0.000
604,0.000
605,0.000
606,0.000
607,0.000
608,0.000
609,0.000
610,0.000
611,0.000
612,0.001
613,0.001
614,0.001
615,0.000
616,0.000
617,0.000
618,0.000
619,0.000
620,0.000
621,0.000
622,0.000
623,0.000
624,0.000
625,0.000
626,0.000
627,0.000
628,0.000
629,-0.001
630,-0.001
631,0.000
632,0.000
633,0.000
634,0.000
635,0.000
636,0.000
637,0.000
638,0.000
639,0.000
640,0.000
641,-0.001
642,-0.001
643,0.000
644,0.000
645,0.000
646,0.000
647,-0.001
648,-0.001
649,0.000
650,0.000
651,0.001
652,0.001
653,0.001
654,0.001
655,0.001
656,0.000
657,0.000
658,0.000
659,0.000
660,0.000
661,0.000
662,0.000
663,0.000
664,0.001
665,0.000
666,0.000
667,-0.001
668,-0.001
669,-0.001
670,0.001
671,0.001
672,0.001
673,0.001
674,0.001
675,0.000
676,0.000
677,-0.001
678,-0.001
679,-0.001
680,-0.001
681,0.000
682,0.000
683,-0.001
684,-0.001
685,0.000
686,0.000
687,-0.001
688,-0.001
689,-0.001
690,0.000
691,0.000
692,0.000
693,-0.001
694,0.000
695,0.000
696,0.000
697,0.001
698,0.001
699,0.001
700,0.001
701,0.000
702,0.000
703,0.001
704,0.000
705,0.000
706,0.000
707,0.000
708,0.001
709,0.001
710,0.001
711,0.002
712,0.002
713,0.000
714,-0.001
715,-0.001
716,-0.002
717,-0.001
718,-0.001
719,0.000
720,0.001
721,0.000
722,0.000
723,-0.001
724,0.000
725,-0.001
726,-0.001
727,0.000
728,0.000
729,-0.001
730,0.000
731,0.000
732,0.000
733,0.000
734,0.000
735,0.000
736,0.000
737,0.002
738,0.001
739,0.001
740,0.001
741,0.001
742,0.000
743,0.000
744,0.000
745,0.001
746,0.001
747,0.002
748,0.001
749,0.000
750,-0.001
751,0.001
752,0.001
753,0.000
754,-0.001
755,-0.002
756,-0.002
757,-0.001
758,0.001
759,0.002
760,0.002
761,0.001
762,0.001
763,0.000
764,0.001
765,0.000
766,-0.002
767,-0.002
768,-0.001
769,0.001
770,0.000
771,0.000
772,-0.001
773,-0.001
774,-0.001
775,-0.001
776,-0.001
777,0.001
778,-0.001
779,-0.001
780,-0.001
781,0.000
782,0.001
783,0.002
784,0.002
785,0.001
786,-0.001
787,-0.002
788,0.000
789,0.000
790,0.000
791,-0.001
792,0.000
793,-0.001
794,0.000
795,0.001
796,0.000
797,-0.002
798,0.000
799,0.002
800,0.001
801,0.000
802,-0.001
803,-0.001
804,-0.001
805,-0.001
806,-0.001
807,-0.004
808,-0.003
809,-0.002
810,0.000
811,0.002
812,0.003
813,0.004
814,0.002
815,0.001
816,0.000
817,-0.002
818,-0.001
819,0.000
820,-0.001
821,-0.001
822,0.000
823,0.000
824,-0.001
825,-0.002
826,-0.001
827,0.000
828,0.002
829,0.000
830,-0.001
831,0.000
832,0.000
833,-0.001
834,-0.002
835,-0.003
836,-0.003
837,-0.003
838,-0.003
839,-0.003
840,-0.003
841,-0.002
842,-0.002
843,-0.004
844,-0.008
845,-0.006
846,-0.004
847,-0.003
848,-0.005
849,-0.006
850,-0.004
851,-0.001
852,0.001
853,-0.001
854,-0.003
855,0.000
856,0.001
857,0.001
858,0.001
859,0.001
860,-0.004
861,-0.004
862,-0.001
863,-0.001
864,-0.001
865,0.002
866,0.003
867,0.000
868,0.001
869,0.000
870,-0.002
871,-0.003
872,-0.004
873,-0.006
874,-0.006
875,-0.002
876,0.002
877,-0.002
878,-0.003
879,-0.001
880,0.001
881,0.001
882,0.000
883,-0.001
884,-0.001
885,-0.001
886,0.000
887,-0.003
888,-0.004
889,0.001
890,0.003
891,0.000
892,-0.002
893,-0.001
894,0.002
895,0.003
896,0.004
897,0.000
898,-0.004
899,-0.005
900,-0.006