Wavelength,Absorbance
200,0.240
201,0.418
202,0.559
203,0.638
204,0.656
205,0.649
206,0.637
207,0.621
208,0.598
209,0.575
210,0.550
211,0.527
212,0.499
213,0.470
214,0.437
215,0.402
216,0.366
217,0.331
218,0.298
219,0.266
220,0.238
221,0.214
222,0.194
223,0.177
224,0.164
225,0.154
226,0.145
227,0.139
228,0.134
229,0.129
230,0.126
231,0.125
232,0.124
233,0.123
234,0.123
235,0.123
236,0.124
237,0.126
238,0.128
239,0.132
240,0.136
241,0.141
242,0.146
243,0.151
244,0.157
245,0.165
246,0.173
247,0.179
248,0.186
249,0.195
250,0.205
251,0.214
252,0.222
253,0.229
254,0.235
255,0.241
256,0.246
257,0.250
258,0.253
259,0.253
260,0.253
261,0.251
262,0.249
263,0.246
264,0.241
265,0.234
266,0.226
267,0.217
268,0.206
269,0.194
270,0.180
271,0.167
272,0.153
273,0.140
274,0.128
275,0.116
276,0.105
277,0.094
278,0.084
279,0.075
280,0.066
281,0.058
282,0.051
283,0.046
284,0.041
285,0.038
286,0.035
287,0.033
288,0.032
289,0.031
290,0.031
291,0.031
292,0.031
293,0.032
294,0.033
295,0.034
296,0.035
297,0.036
298,0.037
299,0.038
300,0.040
301,0.042
302,0.043
303,0.045
304,0.047
305,0.049
306,0.051
307,0.053
308,0.056
309,0.058
310,0.060
311,0.062
312,0.064
313,0.067
314,0.069
315,0.071
316,0.074
317,0.076
318,0.078
319,0.080
320,0.083
321,0.085
322,0.087
323,0.089
324,0.091
325,0.092
326,0.094
327,0.095
328,0.097
329,0.099
330,0.101
331,0.102
332,0.103
333,0.104
334,0.105
335,0.106
336,0.107
337,0.108
338,0.108
339,0.107
340,0.107
341,0.106
342,0.106
343,0.105
344,0.105
345,0.104
346,0.103
347,0.102
348,0.100
349,0.099
350,0.097
351,0.095
352,0.093
353,0.091
354,0.089
355,0.087
356,0.084
357,0.082
358,0.079
359,0.077
360,0.075
361,0.072
362,0.069
363,0.066
364,0.064
365,0.061
366,0.058
367,0.055
368,0.053
369,0.050
370,0.047
371,0.044
372,0.042
373,0.040
374,0.037
375,0.035
376,0.032
377,0.030
378,0.027
379,0.026
380,0.024
381,0.023
382,0.021
383,0.019
384,0.018
385,0.016
386,0.015
387,0.014
388,0.013
389,0.012
390,0.011
391,0.010
392,0.010
393,0.009
394,0.009
395,0.008
396,0.007
397,0.007
398,0.007
399,0.006
400,0.006
401,0.006
402,0.005
403,0.005
404,0.005
405,0.005
406,0.004
407,0.004
408,0.004
409,0.004
410,0.004
411,0.004
412,0.004
413,0.004
414,0.004
415,0.004
416,0.004
417,0.004
418,0.004
419,0.004
420,0.004
421,0.004
422,0.004
423,0.004
424,0.004
425,0.004
426,0.004
427,0.004
428,0.004
429,0.004
430,0.003
431,0.003
432,0.003
433,0.003
434,0.003
435,0.003
436,0.003
437,0.004
438,0.004
439,0.004
440,0.004
441,0.004
442,0.004
443,0.003
444,0.003
445,0.003
446,0.003
447,0.003
448,0.003
449,0.003
450,0.003
451,0.003
452,0.003
453,0.003
454,0.004
455,0.003
456,0.003
457,0.003
458,0.003
459,0.003
460,0.003
461,0.003
462,0.003
463,0.003
464,0.003
465,0.003
466,0.003
467,0.003
468,0.003
469,0.003
470,0.003
471,0.003
472,0.003
473,0.003
474,0.003
475,0.003
476,0.003
477,0.003
478,0.003
479,0.003
480,0.003
481,0.004
482,0.003
483,0.003
484,0.003
485,0.003
486,0.003
487,0.003
488,0.003
489,0.003
490,0.003
491,0.003
492,0.003
493,0.003
494,0.003
495,0.003
496,0.003
497,0.003
498,0.003
499,0.003
500,0.003
501,0.003
502,0.003
503,0.003
504,0.003
505,0.003
506,0.003
507,0.002
508,0.002
509,0.003
510,0.003
511,0.003
512,0.003
513,0.003
514,0.003
515,0.003
516,0.003
517,0.002
518,0.002
519,0.002
520,0.003
521,0.003
522,0.003
523,0.003
524,0.003
525,0.003
526,0.003
527,0.003
528,0.002
529,0.002
530,0.002
531,0.002
532,0.002
533,0.002
534,0.002
535,0.003
536,0.003
537,0.003
538,0.003
539,0.002
540,0.002
541,0.003
542,0.003
543,0.003
544,0.003
545,0.003
546,0.003
547,0.003
548,0.003
549,0.003
550,0.003
551,0.003
552,0.003
553,0.002
554,0.002
555,0.003
556,0.003
557,0.003
558,0.002
559,0.002
560,0.003
561,0.003
562,0.003
563,0.003
564,0.003
565,0.002
566,0.002
567,0.002
568,0.003
569,0.002
570,0.002
571,0.002
572,0.002
573,0.002
574,0.002
575,0.002
576,0.002
577,0.003
578,0.003
579,0.003
580,0.003
581,0.003
582,0.003
583,0.003
584,0.003
585,0.003
586,0.003
587,0.002
588,0.002
589,0.002
590,0.002
591,0.002
592,0.002
593,0.002
594,0.003
595,0.003
596,0.003
597,0.003
598,0.003
599,0.003
600,0.003
601,0.002
602,0.002
603,0.002
604,0.002
605,0.002
606,0.002
607,0.002
608,0.003
609,0.003
610,0.003
611,0.003
612,0.003
613,0.003
614,0.003
615,0.002
616,0.002
617,0.002
618,0.002
619,0.002
620,0.002
621,0.002
622,0.002
623,0.002
624,0.002
625,0.002
626,0.002
627,0.002
628,0.002
629,0.001
630,0.001
631,0.001
632,0.002
633,0.003
634,0.002
635,0.002
636,0.001
637,0.002
638,0.002
639,0.002
640,0.002
641,0.002
642,0.002
643,0.002
644,0.003
645,0.002
646,0.002
647,0.002
648,0.002
649,0.003
650,0.003
651,0.003
652,0.003
653,0.002
654,0.002
655,0.002
656,0.003
657,0.003
658,0.002
659,0.002
660,0.002
661,0.003
662,0.003
663,0.003
664,0.002
665,0.002
666,0.002
667,0.003
668,0.003
669,0.003
670,0.003
671,0.003
672,0.002
673,0.002
674,0.002
675,0.002
676,0.002
677,0.002
678,0.002
679,0.003
680,0.003
681,0.003
682,0.002
683,0.002
684,0.002
685,0.002
686,0.002
687,0.002
688,0.002
689,0.001
690,0.002
691,0.002
692,0.002
693,0.002
694,0.003
695,0.004
696,0.004
697,0.003
698,0.003
699,0.002
700,0.002
701,0.002
702,0.003
703,0.003
704,0.004
705,0.004
706,0.003
707,0.002
708,0.001
709,0.002
710,0.001
711,0.002
712,0.003
713,0.003
714,0.002
715,0.001
716,0.002
717,0.002
718,0.002
719,0.003
720,0.002
721,0.002
722,0.003
723,0.002
724,0.001
725,0.001
726,0.001
727,0.000
728,0.001
729,0.002
730,0.003
731,0.002
732,0.003
733,0.003
734,0.003
735,0.003
736,0.003
737,0.003
738,0.002
739,0.003
740,0.002
741,0.003
742,0.002
743,0.002
744,0.001
745,0.001
746,0.001
747,0.001
748,0.002
749,0.001
750,0.003
751,0.003
752,0.004
753,0.004
754,0.003
755,0.002
756,0.000
757,0.000
758,0.002
759,0.002
760,0.002
761,0.001
762,0.002
763,0.002
764,0.000
765,-0.001
766,0.000
767,0.001
768,0.002
769,0.003
770,0.003
771,0.003
772,0.001
773,0.000
774,0.001
775,0.001
776,0.000
777,0.000
778,0.002
779,0.002
780,0.001
781,0.001
782,0.002
783,0.002
784,0.002
785,0.001
786,0.000
787,0.001
788,0.000
789,0.000
790,0.001
791,0.003
792,0.004
793,0.004
794,0.003
795,0.001
796,0.002
797,0.004
798,0.003
799,0.001
800,0.002
801,0.002
802,0.000
803,-0.001
804,0.003
805,0.004
806,0.001
807,-0.001
808,-0.003
809,-0.001
810,0.004
811,0.003
812,0.001
813,0.002
814,0.004
815,0.003
816,0.004
817,0.004
818,0.002
819,0.003
820,0.003
821,0.001
822,0.000
823,0.001
824,0.001
825,0.002
826,0.002
827,0.002
828,0.001
829,0.002
830,0.003
831,0.002
832,0.002
833,0.002
834,0.004
835,0.002
836,0.002
837,0.003
838,0.003
839,0.003
840,0.004
841,0.005
842,0.008
843,0.007
844,0.003
845,0.005
846,0.006
847,0.003
848,-0.001
849,0.004
850,0.005
851,0.002
852,0.003
853,0.001
854,0.004
855,0.009
856,0.002
857,-0.005
858,-0.006
859,-0.002
860,0.000
861,0.006
862,0.003
863,-0.002
864,0.000
865,0.006
866,0.010
867,0.005
868,-0.001
869,-0.002
870,0.000
871,0.002
872,0.006
873,0.003
874,-0.003
875,0.002
876,0.006
877,0.005
878,0.005
879,0.004
880,0.003
881,0.001
882,0.001
883,0.000
884,-0.001
885,0.000
886,-0.001
887,-0.003
888,0.000
889,-0.001
890,-0.003
891,0.000
892,0.004
893,0.003
894,0.003
895,0.001
896,0.002
897,0.003
898,0.004
899,0.000
900,0.005